PACS bolometer response 
Wavelength (microns) Bolometer response
 20.00000000    0.54900998
 20.04999924    0.57559001
 20.10099983    0.62428999
 20.15099907    0.65594000
 20.20199966    0.64402002
 20.25300026    0.62503999
 20.30500031    0.65287000
 20.35600090    0.64568001
 20.40800095    0.70355999
 20.45999908    0.70766997
 20.51300049    0.68336999
 20.56599998    0.66101003
 20.61899948    0.66009003
 20.67200089    0.67120999
 20.72500038    0.71325999
 20.77899933    0.60246998
 20.83300018    0.63154006
 20.88800049    0.62497002
 20.94199944    0.62418002
 20.99699974    0.60408998
 21.05299950    0.59435999
 21.10799980    0.59617001
 21.16399956    0.61111999
 21.21999931    0.61980999
 21.27700043    0.74712998
 21.33300018    0.73411000
 21.38999939    0.74273998
 21.44799995    0.71666002
 21.50499916    0.72187001
 21.56299973    0.67154002
 21.62199974    0.64131999
 21.68000031    0.62339002
 21.73900032    0.61398000
 21.79800034    0.60026997
 21.85799980    0.57661998
 21.91799927    0.57201999
 21.97800064    0.60276002
 22.03899956    0.62782001
 22.09900093    0.70590001
 22.16099930    0.70787001
 22.22200012    0.70174003
 22.28400040    0.69950002
 22.34600067    0.72038001
 22.40900040    0.76428998
 22.47200012    0.78404999
 22.53499985    0.81208998
 22.59900093    0.81480002
 22.66300011    0.80396998
 22.72699928    0.82291001
 22.79199982    0.84179002
 22.85700035    0.85716999
 22.92300034    0.84867001
 22.98900032    0.83477998
 23.05500031    0.82150000
 23.12100029    0.80712003
 23.18799973    0.82106006
 23.25600052    0.82784998
 23.32399940    0.80120999
 23.39200020    0.80321997
 23.45999908    0.78885001
 23.52899933    0.78439999
 23.59900093    0.80220002
 23.66900063    0.80497003
 23.73900032    0.80359000
 23.80999947    0.80125999
 23.88100052    0.79181999
 23.95199966    0.79560000
 24.02400017    0.81457001
 24.09600067    0.82845998
 24.16900063    0.82914001
 24.24200058    0.81241000
 24.31599998    0.80530000
 24.38999939    0.80699003
 24.46500015    0.80716002
 24.54000092    0.81547999
 24.61499977    0.84167999
 24.69099998    0.80877000
 24.76799965    0.76763999
 24.84499931    0.75958002
 24.92200089    0.77319002
 25.00000000    0.76858002
 25.07799911    0.77610999
 25.15699959    0.77271998
 25.23699951    0.77451998
 25.31599998    0.77603000
 25.39699936    0.79404998
 25.47800064    0.82704002
 25.55900002    0.82059002
 25.64100075    0.79290998
 25.72299957    0.74989003
 25.80599976    0.75217003
 25.88999939    0.76687002
 25.97400093    0.74691999
 26.05900002    0.71701998
 26.14399910    0.69801998
 26.22999954    0.70227998
 26.31599998    0.72363001
 26.40299988    0.72812998
 26.48999977    0.72420001
 26.57799911    0.72544998
 26.66699982    0.71889001
 26.75600052    0.73567998
 26.84600067    0.76411998
 26.93600082    0.78070003
 27.02700233    0.76099998
 27.11899757    0.75003999
 27.21100235    0.78169000
 27.30400085    0.82758999
 27.39699745    0.79692996
 27.49099922    0.78882003
 27.58600044    0.79359001
 27.68199921    0.78321999
 27.77799988    0.79013002
 27.87500191    0.81445998
 27.97200012    0.81068999
 28.06999969    0.80488998
 28.16900253    0.82340002
 28.26899910    0.85223001
 28.36899757    0.86236995
 28.46999931    0.86158001
 28.57099915    0.88099998
 28.67399979    0.87822998
 28.77700233    0.87396997
 28.88100243    0.89727002
 28.98600006    0.89809000
 29.09099770    0.90087998
 29.19700241    0.90153998
 29.30400085    0.89964998
 29.41200066    0.90590006
 29.52000046    0.89714998
 29.62999916    0.90152001
 29.73999977    0.89572001
 29.85099792    0.88571000
 29.96299934    0.87973994
 30.07500076    0.87037998
 30.18899918    0.86677998
 30.30299759    0.86878997
 30.41799927    0.87080997
 30.53400040    0.88425994
 30.65099907    0.89300001
 30.76899910    0.90425998
 30.88800049    0.90605003
 31.00799942    0.91543001
 31.12800026    0.92148000
 31.25000000    0.92681003
 31.37299919    0.92457002
 31.49600029    0.91795999
 31.62100220    0.91049999
 31.74600029    0.91204000
 31.87299919    0.90985000
 32.00000000    0.90952998
 32.12900162    0.90910000
 32.25799942    0.91189998
 32.38899994    0.91294003
 32.52000046    0.91629994
 32.65299988    0.92100000
 32.78699875    0.92856002
 32.92200089    0.92820001
 33.05799866    0.93327999
 33.19499969    0.93913001
 33.33300018    0.94086999
 33.47299957    0.94234997
 33.61299896    0.94351000
 33.75500107    0.94700003
 33.89799881    0.94660997
 34.04299927    0.93968999
 34.18799973    0.93067002
 34.33499908    0.92302001
 34.48300171    0.91443998
 34.63199997    0.90932000
 34.78300095    0.90688998
 34.93399811    0.90829998
 35.08800125    0.90710002
 35.24200058    0.90912998
 35.39799881    0.91453999
 35.55599976    0.92022997
 35.71400070    0.92627001
 35.87400055    0.93406999
 36.03599930    0.94248998
 36.19900131    0.95008999
 36.36399841    0.95355999
 36.52999878    0.95121002
 36.69699860    0.94685000
 36.86600113    0.93970001
 37.03699875    0.93436003
 37.20899963    0.92776000
 37.38299942    0.92246002
 37.55899811    0.91513002
 37.73600006    0.90824002
 37.91500092    0.90012002
 38.09500122    0.89934999
 38.27799988    0.89840001
 38.46200180    0.90091997
 38.64699936    0.90812999
 38.83499908    0.91422999
 39.02399826    0.91847003
 39.21599960    0.92377001
 39.40900040    0.92847002
 39.60400009    0.93450999
 39.80099869    0.93787003
 40.00000000    0.93993998
 40.20100021    0.93958998
 40.40399933    0.93419999
 40.60900116    0.93460000
 40.81600189    0.93448001
 41.02600098    0.93427998
 41.23699951    0.93105000
 41.45100021    0.92053998
 41.66699982    0.90500998
 41.88499832    0.90056998
 42.10499954    0.90367001
 42.32799911    0.90944999
 42.55300140    0.91110992
 42.78099823    0.90895998
 43.01100159    0.90587997
 43.24300003    0.90846002
 43.47800064    0.91626000
 43.71599960    0.92763001
 43.95600128    0.93217999
 44.19900131    0.93089002
 44.44400024    0.93181002
 44.69300079    0.93445998
 44.94400024    0.93292999
 45.19800186    0.92611003
 45.45500183    0.91557002
 45.71400070    0.91011000
 45.97700119    0.91105998
 46.24300003    0.91285002
 46.51200104    0.91878003
 46.78400040    0.91837001
 47.05899811    0.91416001
 47.33700180    0.91924000
 47.61899948    0.92997998
 47.90399933    0.94225001
 48.19300079    0.95305997
 48.48500061    0.96166998
 48.77999878    0.96767998
 49.08000183    0.96583003
 49.38299942    0.96078002
 49.68899918    0.95463002
 50.00000000    0.94766003
 50.31399918    0.94169998
 50.63299942    0.93801999
 50.95500183    0.93743998
 51.28200150    0.93713999
 51.61299896    0.93425000
 51.94800186    0.93336999
 52.28799820    0.93803000
 52.63199997    0.94708002
 52.97999954    0.95731997
 53.33300018    0.96698999
 53.69100189    0.97378999
 54.05400467    0.97452003
 54.42200470    0.97362000
 54.79499435    0.97422999
 55.17200089    0.97561008
 55.55599976    0.97671998
 55.94400024    0.97694999
 56.33800507    0.97685999
 56.73799515    0.97507000
 57.14300156    0.97114998
 57.55400467    0.96934003
 57.97100067    0.96754998
 58.39400482    0.96837002
 58.82400131    0.96895999
 59.25900269    0.96829998
 59.70100021    0.96684003
 60.15000153    0.96582001
 60.60599518    0.96615005
 61.06900024    0.96938998
 61.53799820    0.97263998
 62.01599884    0.97617000
 62.50000000    0.97907001
 62.99200058    0.98193008
 63.49200058    0.98509008
 64.00000000    0.98716998
 64.51599884    0.98767000
 65.04100037    0.98654997
 65.57399750    0.98365998
 66.11599731    0.97978002
 66.66699982    0.97500998
 67.22699738    0.97022003
 67.79699707    0.96698999
 68.37599945    0.96660995
 68.96600342    0.96566999
 69.56500244    0.96447998
 70.17500305    0.96572000
 70.79599762    0.96911001
 71.42900085    0.97180003
 72.07199860    0.97403997
 72.72699738    0.97533000
 73.39399719    0.97491002
 74.07399750    0.97404999
 74.76599884    0.97526002
 75.47200012    0.97731000
 76.19000244    0.97834003
 76.92299652    0.97768003
 77.66999817    0.97689998
 78.43099976    0.97358000
 79.20800018    0.96751004
 80.00000000    0.96219999
 80.80799866    0.95858002
 81.63300323    0.95482999
 82.47399902    0.95194006
 83.33300018    0.94774997
 84.21099854    0.94318998
 85.10600281    0.94059998
 86.02200317    0.94185001
 86.95700073    0.94724000
 87.91200256    0.95286000
 88.88899994    0.95712996
 89.88800049    0.96166003
 90.90899658    0.96460998
 91.95400238    0.96798003
 93.02300262    0.97025001
 94.11799622    0.97042000
 95.23799896    0.97097999
 96.38600159    0.97039002
 97.56099701    0.96811002
 98.76499939    0.96166998
100.00000000    0.95410001
101.26999664    0.94616002
102.55999756    0.93645000
103.90000153    0.92843002
105.26000214    0.92224002
106.66999817    0.91681999
108.11000061    0.91279000
109.58999634    0.91008002
111.11000061    0.91092998
112.68000031    0.91434997
114.29000092    0.92044997
115.94000244    0.93087000
117.65000153    0.94079000
119.40000153    0.94742006
121.20999908    0.94616997
123.08000183    0.94003999
125.00000000    0.92916000
126.98000336    0.90997994
129.02999878    0.89069998
131.14999390    0.86598003
133.33000183    0.84447998
135.58999634    0.82924998
137.92999268    0.81998998
140.35000610    0.82587999
142.86000061    0.82156003
145.44999695    0.81538999
148.14999390    0.82374001
150.94000244    0.82858002
153.85000610    0.83785999
156.86000061    0.83876002
160.00000000    0.83094001
163.27000427    0.82041001
166.66999817    0.78627002
170.21000671    0.77039999
173.91000366    0.77819997
177.77999878    0.77837002
181.82000732    0.77976000
186.05000305    0.77688003
190.47999573    0.78860998
195.11999512    0.78922999
200.00000000    0.77320999
205.13000488    0.75866997
210.52999878    0.75255001
216.22000122    0.75989997
222.22000122    0.75418001
228.57000732    0.73895001
235.28999329    0.71691000
242.41999817    0.67672998
250.00000000    0.62664998
258.05999756    0.59456003
266.67001343    0.56049001
275.85998535    0.51210999
285.70999146    0.44338000
296.29998779    0.42642999
307.69000244    0.37411001
320.00000000    0.30655000
333.32998657    0.23515999
347.82998657    0.18200999
363.64001465    0.15765999
380.95001221    0.16759001
400.00000000    0.14478999
421.04998779    0.10353000
444.44000244    0.04919800
470.58999634    0.02469300
500.00000000    0.07408400
